File: Messdaten/ExpDat_Tb_0.5Gd_0.5ScO3-2200-2x-3(unsere).txt
#EXPORTTYPE:                 	DATA COMPARE                    	DATA COMPARE                    	DATA COMPARE                    	DATA COMPARE                    	DATA COMPARE
#FILE:                       	Dy_0.5Tb_0.5ScO3-2050-2x.ngb-sst	Dy_0.5Tb_0.5ScO3-2050-2x.ngb-sst	Tb_0.5Gd_0.5ScO3-2200-2x.ngb-sst	Tb_0.5Gd_0.5ScO3-2200-2x.ngb-sst	Al2O3-1950-1x.ngb-sst
#FORMAT:                     	NETZSCH5                        	NETZSCH5                        	NETZSCH5                        	NETZSCH5                        	NETZSCH5
#FTYPE:                      	ASCII                           	ASCII                           	ASCII                           	ASCII                           	ASCII
#IDENTITY:                   	cm-02                           	cm-02                           	cm-01                           	cm-01                           	cm-03
#DECIMAL:                    	POINT                           	POINT                           	POINT                           	POINT                           	POINT
#SEPARATOR:                  	TAB                             	TAB                             	TAB                             	TAB                             	TAB
#MTYPE:                      	DTA                             	DTA                             	DTA                             	DTA                             	DTA
#INSTRUMENT:                 	NETZSCH STA 429(CD)             	NETZSCH STA 429(CD)             	NETZSCH STA 429(CD)             	NETZSCH STA 429(CD)             	NETZSCH STA 429(CD)
#PROJECT:                    	HU-Praktikum                    	HU-Praktikum                    	HU-Praktikum                    	HU-Praktikum                    	HU-Praktikum
#DATE/TIME:                  	13.09.2017 15:30:53 (UTC+2)     	13.09.2017 15:30:53 (UTC+2)     	12.09.2017 14:36:56 (UTC+2)     	12.09.2017 14:36:56 (UTC+2)     	14.09.2017 10:00:20 (UTC+2)
#CORR. FILE:
#TEMPCAL:                    	TCALZERO.TCX                    	TCALZERO.TCX                    	TCALZERO.TCX                    	TCALZERO.TCX                    	TCALZERO.TCX
#SENSITIVITY:                	SENSZERO.EXX                    	SENSZERO.EXX                    	SENSZERO.EXX                    	SENSZERO.EXX                    	SENSZERO.EXX
#LABORATORY:                 	IKZ Berlin                      	IKZ Berlin                      	IKZ Berlin                      	IKZ Berlin                      	IKZ Berlin
#OPERATOR:                   	kl                              	kl                              	kl                              	kl                              	kl
#REMARK:                     	1 X-St?ck, mit Deckel           	1 X-St?ck, mit Deckel           	1 X-St?ck, mit Deckel           	1 X-St?ck, mit Deckel           	Probe vom 21.7.2016
#SAMPLE:                     	Dy_0.5Tb_0.5ScO3                	Dy_0.5Tb_0.5ScO3                	Tb_0.5Gd_0.5ScO3                	Tb_0.5Gd_0.5ScO3                	Al2O3-Kalibrierung
#SAMPLE MASS /mg:            	62.85                           	62.85                           	72.75                           	72.75                           	22.88
#MATERIAL:                   	Scandate                        	Scandate                        	Scandate                        	Scandate                        	Scandate
#REFERENCE:                  	empty                           	empty                           	empty                           	empty                           	empty
#REFERENCE MASS /mg:         	0                               	0                               	0                               	0                               	0
#TYPE OF CRUCIBLE:           	DTA/TG crucible Tungsten        	DTA/TG crucible Tungsten        	DTA/TG crucible Tungsten        	DTA/TG crucible Tungsten        	DTA/TG crucible Tungsten
#SAMPLE CRUCIBLE MASS /mg:   	330.67                          	330.67                          	426.25                          	426.25                          	390.36
#REFERENCE CRUCIBLE MASS /mg:	584.15                          	584.15                          	584.15                          	584.15                          	584.15
#PROTECTIVE GAS:             	<no gas>                        	<no gas>                        	<no gas>                        	<no gas>                        	<no gas>
#FLOW RATE:
#PURGE GAS 1:                	<no gas>                        	<no gas>                        	<no gas>                        	<no gas>                        	<no gas>
#FLOW RATE 1:
#GAS 1:                      	HELIUM                          	HELIUM                          	HELIUM                          	HELIUM                          	HELIUM
#FLOW RATE 1 /(ml/min):      	0                               	0                               	0                               	0                               	0
#GAS 2:                      	<no gas>                        	<no gas>                        	<no gas>                        	<no gas>                        	<no gas>
#FLOW RATE 2:
#TG RANGE /mg:               	30000                           	30000                           	30000                           	30000                           	30000
#TAU-R:                      	---                             	---                             	---                             	---                             	---
#CORR. CODE:                 	000                             	000                             	000                             	000                             	000
#EXO:                        	+1                              	+1                              	+1                              	+1                              	+1
#RANGE:                      	24.0›C/15.0(K/min)/2050.0›C     	500.0›C/15.0(K/min)/2050.0›C    	24.0›C/15.0(K/min)/2050.0›C     	500.0›C/15.0(K/min)/2050.0›C    	24.0›C/15.0(K/min)/2000.0›C
#SEGMENT:                    	S1/4                            	S3/4                            	S1/4                            	S3/4                            	S1/2
#SEG. 3:                     	                                	500.0›C/15.0(K/min)/2050.0›C    	                                	500.0›C/15.0(K/min)/2050.0›C
#SEG. 1:                     	24.0›C/15.0(K/min)/2050.0›C     	                                	24.0›C/15.0(K/min)/2050.0›C     	                                	24.0›C/15.0(K/min)/2000.0›C

##Temp./›C	DTA/(‘V/mg)	DTA/(‘V/mg)	DTA/(‘V/mg)	DTA/(‘V/mg)	DTA/(‘V/mg)
  20.60200	 3.5800e-003	           	 3.5567e-003	           	 1.0216e-002
  23.60200	-1.0713e-002	           	-1.0284e-002	           	-4.1230e-002
  26.60200	-1.7557e-002	           	-1.6449e-002	           	-6.3772e-002
  29.60200	-2.1922e-002	           	-2.0199e-002	           	-7.6766e-002
  32.60200	-2.4440e-002	           	-2.2357e-002	           	-8.4018e-002
  35.60200	-2.5584e-002	           	-2.3213e-002	           	-8.6154e-002
  38.60200	-2.5102e-002	           	-2.2569e-002	           	-8.3213e-002
  41.60200	-2.2801e-002	           	-2.0413e-002	           	-7.5148e-002
  44.60200	-1.8896e-002	           	-1.6599e-002	           	-6.2344e-002
  47.60200	-1.3237e-002	           	-1.1326e-002	           	-4.6295e-002
  50.60200	-7.4729e-003	           	-6.1941e-003	           	-2.9441e-002
  53.60200	-7.3772e-003	           	-6.8823e-003	           	-2.7261e-002
  56.60200	-1.1988e-002	           	-1.1419e-002	           	-3.9819e-002
  59.60200	-1.5852e-002	           	-1.4589e-002	           	-5.1465e-002
  62.60200	-1.7949e-002	           	-1.5987e-002	           	-5.8390e-002
  65.60200	-1.8366e-002	           	-1.5988e-002	           	-6.0534e-002
  68.60200	-1.7364e-002	           	-1.4709e-002	           	-5.7996e-002
  71.60200	-1.5574e-002	           	-1.2964e-002	           	-5.2449e-002
  74.60200	-1.4300e-002	           	-1.1823e-002	           	-4.7368e-002
  77.60200	-1.4646e-002	           	-1.2312e-002	           	-4.6901e-002
  80.60200	-1.6144e-002	           	-1.4234e-002	           	-5.0438e-002
  83.60200	-1.7771e-002	           	-1.5241e-002	           	-5.5199e-002
  86.60200	-1.9032e-002	           	-1.5208e-002	           	-5.8076e-002
  89.60200	-1.9178e-002	           	-1.4914e-002	           	-5.8699e-002
  92.60200	-1.9088e-002	           	-1.4838e-002	           	-5.7629e-002
  95.60200	-1.9233e-002	           	-1.5139e-002	           	-5.7039e-002
  98.60200	-2.0046e-002	           	-1.5813e-002	           	-5.7570e-002
 101.602	-2.1102e-002	           	-1.7180e-002	           	-5.9465e-002
 104.602	-2.2267e-002	           	-1.7132e-002	           	-6.1858e-002
 107.602	-2.2875e-002	           	-1.6865e-002	           	-6.3239e-002
 110.602	-2.3359e-002	           	-1.7131e-002	           	-6.3690e-002
 113.602	-2.3852e-002	           	-1.7705e-002	           	-6.3370e-002
 116.602	-2.4950e-002	           	-1.8274e-002	           	-6.4266e-002
 119.602	-2.5861e-002	           	-1.9389e-002	           	-6.6033e-002
 122.602	-2.6928e-002	           	-1.9597e-002	           	-6.7854e-002
 125.602	-2.7904e-002	           	-1.8833e-002	           	-6.8608e-002
 128.602	-2.8606e-002	           	-1.9607e-002	           	-6.9746e-002
 131.602	-2.9259e-002	           	-2.0625e-002	           	-7.0189e-002
 134.602	-3.0283e-002	           	-2.1269e-002	           	-7.0955e-002
 137.602	-3.1714e-002	           	-2.2012e-002	           	-7.1640e-002
 140.602	-3.2967e-002	           	-2.2832e-002	           	-7.3482e-002
 143.602	-3.4266e-002	           	-2.1546e-002	           	-7.4575e-002
 146.602	-3.4824e-002	           	-2.2086e-002	           	-7.4744e-002
 149.602	-3.5923e-002	           	-2.3407e-002	           	-7.6313e-002
 152.602	-3.7582e-002	           	-2.4256e-002	           	-7.7026e-002
 155.602	-3.8804e-002	           	-2.4694e-002	           	-7.7310e-002
 158.602	-4.0012e-002	           	-2.5938e-002	           	-7.8892e-002
 161.602	-4.1301e-002	           	-2.4899e-002	           	-7.9212e-002
 164.602	-4.2409e-002	           	-2.5205e-002	           	-8.0391e-002
 167.602	-4.3491e-002	           	-2.6804e-002	           	-8.1549e-002
 170.602	-4.5011e-002	           	-2.7731e-002	           	-8.2227e-002
 173.602	-4.6653e-002	           	-2.8321e-002	           	-8.3196e-002
 176.602	-4.8493e-002	           	-2.9413e-002	           	-8.4070e-002
 179.602	-4.9561e-002	           	-2.7319e-002	           	-8.4211e-002
 182.602	-5.1443e-002	           	-2.8318e-002	           	-8.4441e-002
 185.602	-5.2643e-002	           	-3.0516e-002	           	-8.6659e-002
 188.602	-5.3293e-002	           	-3.1708e-002	           	-8.3677e-002
 191.602	-5.5554e-002	           	-3.1658e-002	           	-8.8952e-002
 194.602	-5.7959e-002	           	-3.2482e-002	           	-9.5409e-002
 197.602	-5.9683e-002	           	-3.1278e-002	           	-9.2439e-002
 200.602	-6.0703e-002	           	-3.2744e-002	           	-8.6437e-002
 203.602	-6.1920e-002	           	-3.4010e-002	           	-8.7297e-002
 206.602	-6.3941e-002	           	-3.4576e-002	           	-9.2196e-002
 209.602	-6.8038e-002	           	-3.5752e-002	           	-9.3939e-002
 212.602	-7.1183e-002	           	-3.5306e-002	           	-9.0474e-002
 215.602	-7.3288e-002	           	-3.5463e-002	           	-8.8834e-002
 218.602	-7.6399e-002	           	-3.6834e-002	           	-9.2539e-002
 221.602	-7.9823e-002	           	-3.7804e-002	           	-9.4653e-002
 224.602	-8.1536e-002	           	-3.8036e-002	           	-9.3651e-002
 227.602	-8.2624e-002	           	-4.0420e-002	           	-9.2227e-002
 230.602	-8.4882e-002	           	-3.8678e-002	           	-9.3308e-002
 233.602	-8.8059e-002	           	-3.9305e-002	           	-9.4845e-002
 236.602	-9.0136e-002	           	-4.1509e-002	           	-9.3033e-002
 239.602	-9.1150e-002	           	-4.2365e-002	           	-9.2996e-002
 242.602	-9.3632e-002	           	-4.2467e-002	           	-9.4166e-002
 245.602	-9.6540e-002	           	-4.2809e-002	           	-9.4582e-002
 248.602	-9.9050e-002	           	-4.2139e-002	           	-9.3915e-002
 251.602	    -0.10105	           	-4.4424e-002	           	-9.2278e-002
 254.602	    -0.10280	           	-4.6252e-002	           	-9.3298e-002
 257.602	    -0.10521	           	-4.5173e-002	           	-9.4646e-002
 260.602	    -0.10760	           	-4.6489e-002	           	-9.3859e-002
 263.602	    -0.11037	           	-4.6315e-002	           	-9.2751e-002
 266.602	    -0.11276	           	-4.7560e-002	           	-9.4211e-002
 269.602	    -0.11448	           	-4.9424e-002	           	-9.0937e-002
 272.602	    -0.11790	           	-4.9938e-002	           	-9.2499e-002
 275.602	    -0.12059	           	-4.8956e-002	           	-9.4102e-002
 278.602	    -0.12217	           	-5.0634e-002	           	-8.7670e-002
 281.602	    -0.12435	           	-5.2054e-002	           	-8.6753e-002
 284.602	    -0.12773	           	-5.2330e-002	           	-9.3913e-002
 287.602	    -0.13097	           	-5.3121e-002	           	-9.1421e-002
 290.602	    -0.13294	           	-5.3660e-002	           	-8.4892e-002
 293.602	    -0.13499	           	-5.5189e-002	           	-8.8208e-002
 296.602	    -0.13809	           	-5.4818e-002	           	-9.1286e-002
 299.602	    -0.14103	           	-5.5959e-002	           	-8.5500e-002
 302.602	    -0.14264	           	-5.7716e-002	           	-8.0508e-002
 305.602	    -0.14575	           	-5.7738e-002	           	-8.7044e-002
 308.602	    -0.14864	           	-5.8800e-002	           	-8.6454e-002
 311.602	    -0.15189	           	-5.9142e-002	           	-7.9854e-002
 314.602	    -0.15382	           	-6.0359e-002	           	-8.1116e-002
 317.602	    -0.15498	           	-6.1657e-002	           	-8.2379e-002
 320.602	    -0.15885	           	-6.2284e-002	           	-7.7959e-002
 323.602	    -0.16211	           	-6.3067e-002	           	-7.5551e-002
 326.602	    -0.16357	           	-6.4075e-002	           	-7.6598e-002
 329.602	    -0.16677	           	-6.4842e-002	           	-7.5093e-002
 332.602	    -0.17003	           	-6.6504e-002	           	-7.2059e-002
 335.602	    -0.17280	           	-6.6919e-002	           	-7.0535e-002
 338.602	    -0.17609	           	-6.7408e-002	           	-7.0639e-002
 341.602	    -0.17902	           	-6.8215e-002	           	-6.5757e-002
 344.602	    -0.18154	           	-7.0715e-002	           	-6.1190e-002
 347.602	    -0.18377	           	-7.0435e-002	           	-7.2981e-002
 350.602	    -0.18694	           	-7.0706e-002	           	-5.9232e-002
 353.602	    -0.18905	           	-7.2329e-002	           	-5.2309e-002
 356.602	    -0.19236	           	-7.3513e-002	           	-7.2476e-002
 359.602	    -0.19501	           	-7.3553e-002	           	-6.5233e-002
 362.602	    -0.19819	           	-7.4960e-002	           	-4.1472e-002
 365.602	    -0.20191	           	-7.7317e-002	           	-5.2254e-002
 368.602	    -0.20257	           	-7.6450e-002	           	-5.6048e-002
 371.602	    -0.20457	           	-7.6292e-002	           	-4.4007e-002
 374.602	    -0.20833	           	-7.9337e-002	           	-3.9677e-002
 377.602	    -0.21129	           	-7.9997e-002	           	-4.6396e-002
 380.602	    -0.21188	           	-7.9985e-002	           	-4.0083e-002
 383.602	    -0.21561	           	-8.1832e-002	           	-3.0497e-002
 386.602	    -0.21946	           	-8.2417e-002	           	-3.3527e-002
 389.602	    -0.21993	           	-8.2710e-002	           	-3.2481e-002
 392.602	    -0.22302	           	-8.3407e-002	           	-2.4227e-002
 395.602	    -0.22750	           	-8.5654e-002	           	-2.2255e-002
 398.602	    -0.22824	           	-8.6420e-002	           	-2.1172e-002
 401.602	    -0.23130	           	-8.6044e-002	           	-1.6049e-002
 404.602	    -0.23556	           	-8.8370e-002	           	-1.1717e-002
 407.602	    -0.23551	           	-8.9967e-002	           	-6.7368e-003
 410.602	    -0.24014	           	-8.8956e-002	           	-3.6214e-003
 413.602	    -0.24581	           	-9.1297e-002	           	 3.0712e-004
 416.602	    -0.24665	           	-9.3846e-002	           	 6.4383e-003
 419.602	    -0.24932	           	-9.2054e-002	           	 8.3235e-003
 422.602	    -0.25357	           	-9.3813e-002	           	 1.0984e-002
 425.602	    -0.25622	           	-9.6049e-002	           	 1.5037e-002
 428.602	    -0.25762	           	-9.6194e-002	           	 1.8572e-002
 431.602	    -0.26101	           	-9.6099e-002	           	 2.3088e-002
 434.602	    -0.26459	           	-9.7791e-002	           	 3.0266e-002
 437.602	    -0.26638	           	-9.9960e-002	           	 3.3515e-002
 440.602	    -0.26668	           	    -0.10083	           	 3.5583e-002
 443.602	    -0.27172	           	-9.8849e-002	           	 3.9553e-002
 446.602	    -0.27322	           	    -0.10264	           	 4.7045e-002
 449.602	    -0.27353	           	    -0.10324	           	 5.8019e-002
 452.602	    -0.27771	           	    -0.10162	           	 5.3786e-002
 455.602	    -0.27874	           	    -0.10433	           	 6.1002e-002
 458.602	    -0.28046	           	    -0.10549	           	 6.7975e-002
 461.602	    -0.28246	           	    -0.10604	           	 6.9709e-002
 464.602	    -0.28549	           	    -0.10666	           	 8.1239e-002
 467.602	    -0.28540	           	    -0.10690	           	 8.1744e-002
 470.602	    -0.28822	           	    -0.10976	           	 8.3932e-002
 473.602	    -0.29332	           	    -0.10838	           	 9.7089e-002
 476.602	    -0.29295	           	    -0.10981	           	 9.9425e-002
 479.602	    -0.29360	           	    -0.11137	           	     0.11450
 482.602	    -0.29753	    0.13276	    -0.11180	    0.15182	     0.11108
 485.602	    -0.29776	    0.13276	    -0.11229	    0.15182	     0.11099
 488.602	    -0.29886	    0.13276	    -0.11290	    0.15182	     0.12839
 491.602	    -0.30118	    0.13276	    -0.11379	    0.15182	     0.13010
 494.602	    -0.30333	    0.13276	    -0.11504	    0.15182	     0.13656
 497.602	    -0.30388	5.6888e-002	    -0.11469	7.3303e-002	     0.14586
 500.602	    -0.30478	3.0095e-002	    -0.11573	3.4881e-002	     0.15047
 503.602	    -0.30791	4.7961e-002	    -0.11424	4.0345e-002	     0.15541
 506.602	    -0.30738	5.1176e-002	    -0.11628	6.6135e-002	     0.16438
 509.602	    -0.30733	4.0812e-002	    -0.11607	4.4260e-002	     0.17470
 512.602	    -0.31110	6.6156e-002	    -0.11566	6.5247e-002	     0.17450
 515.602	    -0.31147	4.8726e-002	    -0.11732	6.1832e-002	     0.18473
 518.602	    -0.30910	5.1511e-002	    -0.11708	5.4366e-002	     0.20063
 521.602	    -0.31445	5.8855e-002	    -0.11704	6.8666e-002	     0.19808
 524.602	    -0.31349	5.2888e-002	    -0.11662	6.3481e-002	     0.20879
 527.602	    -0.31257	5.9001e-002	    -0.11761	6.3911e-002	     0.21721
 530.602	    -0.31510	5.8263e-002	    -0.11746	6.9699e-002	     0.22886
 533.602	    -0.31669	5.8467e-002	    -0.11550	6.7412e-002	     0.22559
 536.602	    -0.31570	6.3872e-002	    -0.11620	7.0236e-002	     0.24453
 539.602	    -0.31693	6.3371e-002	    -0.11529	7.1833e-002	     0.25206
 542.602	    -0.31872	6.6221e-002	    -0.11326	7.2743e-002	     0.25847
 545.602	    -0.31815	6.9176e-002	    -0.11441	7.5748e-002	     0.27266
 548.602	    -0.31775	7.0303e-002	    -0.11300	7.8163e-002	     0.27676
 551.602	    -0.32031	7.4461e-002	    -0.11444	8.1163e-002	     0.28902
 554.602	    -0.31958	7.5697e-002	    -0.11118	8.1178e-002	     0.29629
 557.602	    -0.32045	7.9141e-002	    -0.11227	8.6528e-002	     0.30651
 560.602	    -0.31954	8.1684e-002	    -0.11056	8.6951e-002	     0.31874
 563.602	    -0.31927	8.3856e-002	    -0.10890	9.0782e-002	     0.32554
 566.602	    -0.31905	8.7122e-002	    -0.10798	9.4134e-002	     0.34147
 569.602	    -0.31836	8.9972e-002	    -0.10636	9.5923e-002	     0.34753
 572.602	    -0.31814	9.3040e-002	    -0.10475	9.9409e-002	     0.36040
 575.602	    -0.31812	9.5856e-002	    -0.10378	    0.10292	     0.37861
 578.602	    -0.31283	9.8460e-002	    -0.10140	    0.10546	     0.38277
 581.602	    -0.31479	    0.10063	-9.9681e-002	    0.10938	     0.39880
 584.602	    -0.31403	    0.10661	-9.8774e-002	    0.11134	     0.40603
 587.602	    -0.30857	    0.10804	-9.5614e-002	    0.11323	     0.42676
 590.602	    -0.30760	    0.11243	-9.4613e-002	    0.11676	     0.44083
 593.602	    -0.30615	    0.11626	-9.1535e-002	    0.11989	     0.45090
 596.602	    -0.30170	    0.11879	-9.1173e-002	    0.12236	     0.47301
 599.602	    -0.29834	    0.12327	-8.8764e-002	    0.12619	     0.48263
 602.602	    -0.29615	    0.12616	-8.6930e-002	    0.12783	     0.50158
 605.602	    -0.29149	    0.13131	-8.5135e-002	    0.13078	     0.52073
 608.602	    -0.28737	    0.13190	-8.3337e-002	    0.13264	     0.53451
 611.602	    -0.28343	    0.13631	-7.9293e-002	    0.13562	     0.55549
 614.602	    -0.27839	    0.13916	-7.7015e-002	    0.13914	     0.57879
 617.602	    -0.26970	    0.14099	-7.4859e-002	    0.14029	     0.59585
 620.602	    -0.26488	    0.14678	-7.0438e-002	    0.14408	     0.61369
 623.602	    -0.25856	    0.14781	-6.6256e-002	    0.14779	     0.62712
 626.602	    -0.25088	    0.15326	-6.1414e-002	    0.14914	     0.64519
 629.602	    -0.24402	    0.15636	-5.6870e-002	    0.15195	     0.66652
 632.602	    -0.23812	    0.15997	-5.1642e-002	    0.15674	     0.69298
 635.602	    -0.22962	    0.16501	-4.6553e-002	    0.15922	     0.71255
 638.602	    -0.22088	    0.16881	-3.9810e-002	    0.16368	     0.73788
 641.602	    -0.21284	    0.17268	-3.4111e-002	    0.16588	     0.76510
 644.602	    -0.20273	    0.17853	-2.8077e-002	    0.16962	     0.78597
 647.602	    -0.19324	    0.18079	-2.1027e-002	    0.17380	     0.81846
 650.602	    -0.18379	    0.18493	-1.3520e-002	    0.17663	     0.84369
 653.602	    -0.17302	    0.18937	-4.4899e-003	    0.18100	     0.86637
 656.602	    -0.16084	    0.19314	 3.2113e-003	    0.18367	     0.89570
 659.602	    -0.14922	    0.19512	 1.4362e-002	    0.18824	     0.91883
 662.602	    -0.13809	    0.20094	 2.5982e-002	    0.19341	     0.94979
 665.602	    -0.12577	    0.20169	 3.5895e-002	    0.19724	     0.97443
 668.602	    -0.11206	    0.20502	 4.8127e-002	    0.20021	     0.99876
 671.602	    -0.10063	    0.20849	 5.9445e-002	    0.20381	     1.03197
 674.602	-8.6441e-002	    0.21228	 7.1573e-002	    0.20768	     1.05515
 677.602	-7.2507e-002	    0.21653	 8.2596e-002	    0.21041	     1.08636
 680.602	-5.9924e-002	    0.22077	 9.5835e-002	    0.21203	     1.11702
 683.602	-4.6336e-002	    0.22446	     0.10825	    0.21641	     1.14729
 686.602	-3.2364e-002	    0.22874	     0.12120	    0.22010	     1.17879
 689.602	-1.6957e-002	    0.23226	     0.13345	    0.22403	     1.21163
 692.602	-4.5639e-003	    0.23691	     0.14658	    0.22697	     1.24828
 695.602	 9.2354e-003	    0.24030	     0.15840	    0.23084	     1.28228
 698.602	 2.1390e-002	    0.24600	     0.17291	    0.23605	     1.31059
 701.602	 3.5335e-002	    0.24698	     0.18528	    0.23808	     1.34396
 704.602	 4.5717e-002	    0.25246	     0.19780	    0.24158	     1.37857
 707.602	 5.8315e-002	    0.25257	     0.20801	    0.24610	     1.41342
 710.602	 6.7969e-002	    0.25798	     0.22311	    0.24973	     1.44555
 713.602	 7.9009e-002	    0.26245	     0.23097	    0.25401	     1.48010
 716.602	 8.9800e-002	    0.26604	     0.24269	    0.25785	     1.50938
 719.602	     0.10013	    0.27092	     0.25231	    0.26275	     1.54371
 722.602	     0.10797	    0.27535	     0.26042	    0.26563	     1.57264
 725.602	     0.11860	    0.27969	     0.26918	    0.27035	     1.59580
 728.602	     0.12695	    0.28384	     0.27681	    0.27320	     1.63084
 731.602	     0.13434	    0.28816	     0.28348	    0.27734	     1.65799
 734.602	     0.14228	    0.29348	     0.28904	    0.27367	     1.68312
 737.602	     0.14972	    0.29712	     0.29411	    0.26674	     1.70936
 740.602	     0.15593	    0.30140	     0.29793	    0.26463	     1.73992
 743.602	     0.16251	    0.30556	     0.30155	    0.26790	     1.75967
 746.602	     0.16744	    0.30956	     0.30465	    0.27172	     1.78872
 749.602	     0.17574	    0.31361	     0.30539	    0.27677	     1.81543
 752.602	     0.17873	    0.31732	     0.30871	    0.27984	     1.83512
 755.602	     0.18569	    0.33041	     0.30862	    0.28307	     1.86083
 758.602	     0.19275	    0.33454	     0.30831	    0.28497	     1.88519
 761.602	     0.19979	    0.34010	     0.31124	    0.28510	     1.91820
 764.602	     0.21008	    0.34360	     0.30952	    0.28971	     1.94414
 767.602	     0.21797	    0.34684	     0.30964	    0.29834	     1.96897
 770.602	     0.22842	    0.35179	     0.31035	    0.30390	     1.99882
 773.602	     0.22920	    0.35795	     0.31100	    0.30797	     2.02686
 776.602	     0.23045	    0.36560	     0.30970	    0.31047	     2.05790
 779.602	     0.23307	    0.37000	     0.30926	    0.31288	     2.08053
 782.602	     0.24180	    0.37452	     0.30702	    0.31660	     2.11530
 785.602	     0.25285	    0.37984	     0.31009	    0.32006	     2.14778
 788.602	     0.26494	    0.38317	     0.31330	    0.32320	     2.17596
 791.602	     0.27427	    0.38953	     0.31249	    0.32582	     2.20565
 794.602	     0.28720	    0.39168	     0.31235	    0.33070	     2.24304
 797.602	     0.29521	    0.39766	     0.31088	    0.33444	     2.27796
 800.602	     0.31075	    0.40228	     0.31307	    0.33916	     2.31019
 803.602	     0.31691	    0.40828	     0.31255	    0.34371	     2.34608
 806.602	     0.33044	    0.41290	     0.31658	    0.34492	     2.37025
 809.602	     0.34270	    0.41831	     0.31867	    0.35163	     2.41091
 812.602	     0.36014	    0.42228	     0.32169	    0.35727	     2.44881
 815.602	     0.36991	    0.42693	     0.32585	    0.36089	     2.48908
 818.602	     0.38765	    0.43353	     0.32879	    0.36621	     2.52732
 821.602	     0.39800	    0.43727	     0.33057	    0.36944	     2.57984
 824.602	     0.41639	    0.44352	     0.33531	    0.37428	     2.62930
 827.602	     0.43424	    0.44794	     0.33878	    0.37707	     2.68329
 830.602	     0.44965	    0.45089	     0.34212	    0.38259	     2.73814
 833.602	     0.46863	    0.45717	     0.34594	    0.38457	     2.80457
 836.602	     0.50392	    0.46131	     0.35014	    0.38632	     2.86943
 839.602	     0.52797	    0.46721	     0.35635	    0.38973	     2.93731
 842.602	     0.54750	    0.47308	     0.36068	    0.39472	     3.01391
 845.602	     0.58058	    0.47855	     0.36236	    0.39819	     3.09242
 848.602	     0.60787	    0.48223	     0.36783	    0.40426	     3.17438
 851.602	     0.63721	    0.48697	     0.37678	    0.41380	     3.26076
 854.602	     0.65551	    0.49006	     0.38037	    0.41675	     3.35689
 857.602	     0.68791	    0.49790	     0.38884	    0.41846	     3.44425
 860.602	     0.72449	    0.50264	     0.39562	    0.42011	     3.54365
 863.602	     0.76140	    0.50717	     0.40121	    0.42350	     3.65293
 866.602	     0.79736	    0.51236	     0.41116	    0.42957	     3.73672
 869.602	     0.83172	    0.51746	     0.41771	    0.43394	     3.83535
 872.602	     0.86122	    0.52097	     0.42510	    0.43805	     3.90520
 875.602	     0.86897	    0.52687	     0.43533	    0.44139	     3.94640
 878.602	     0.88012	    0.52901	     0.44432	    0.44741	     3.97932
 881.602	     0.89390	    0.53332	     0.45666	    0.45096	     4.00057
 884.602	     0.90389	    0.53857	     0.46677	    0.44977	     3.99745
 887.602	     0.91864	    0.54199	     0.47957	    0.46439	     4.00662
 890.602	     0.92541	    0.54461	     0.49074	    0.46174	     3.98676
 893.602	     0.95669	    0.54850	     0.50895	    0.46718	     3.96197
 896.602	     0.96977	    0.55300	     0.52266	    0.47285	     3.93957
 899.602	     0.97127	    0.55782	     0.53953	    0.47626	     3.91098
 902.602	     0.96982	    0.56203	     0.56059	    0.47964	     3.88413
 905.602	     0.93908	    0.56195	     0.57953	    0.48561	     3.81489
 908.602	     0.92060	    0.56579	     0.60624	    0.48140	     3.75730
 911.602	     0.91080	    0.56963	     0.62589	    0.49095	     3.69810
 914.602	     0.90604	    0.57526	     0.65138	    0.49892	     3.62572
 917.602	     0.91031	    0.57853	     0.67536	    0.50134	     3.56381
 920.602	     0.89910	    0.58298	     0.69721	    0.50989	     3.49348
 923.602	     0.89052	    0.58738	     0.72242	    0.51518	     3.41706
 926.602	     0.87204	    0.58792	     0.74511	    0.51659	     3.33356
 929.602	     0.85564	    0.59356	     0.76789	    0.52254	     3.25244
 932.602	     0.83606	    0.59752	     0.78566	    0.52499	     3.14215
 935.602	     0.82247	    0.60206	     0.80237	    0.52967	     3.04281
 938.602	     0.79922	    0.60735	     0.81857	    0.53291	     2.94033
 941.602	     0.77664	    0.61346	     0.82790	    0.53586	     2.82735
 944.602	     0.75583	    0.61501	     0.85664	    0.53968	     2.69506
 947.602	     0.72581	    0.62146	     0.86842	    0.54553	     2.55993
 950.602	     0.69277	    0.62787	     0.87788	    0.54564	     2.42455
 953.602	     0.66383	    0.63486	     0.88784	    0.54899	     2.28821
 956.602	     0.63214	    0.63995	     0.90275	    0.55464	     2.14452
 959.602	     0.59530	    0.64486	     0.90873	    0.55395	     1.99963
 962.602	     0.56745	    0.64876	     0.91321	    0.55444	     1.86292
 965.602	     0.56015	    0.64889	     0.91993	    0.55966	     1.74377
 968.602	     0.55780	    0.65501	     0.92349	    0.56173	     1.70851
 971.602	     0.55878	    0.65642	     0.92981	    0.56525	     1.71279
 974.602	     0.56316	    0.65906	     0.93718	    0.56750	     1.72262
 977.602	     0.56180	    0.66206	     0.93989	    0.57274	     1.72751
 980.602	     0.55801	    0.66126	     0.93879	    0.57632	     1.73582
 983.602	     0.55905	    0.66640	     0.94303	    0.57817	     1.74652
 986.602	     0.55487	    0.67096	     0.94734	    0.58710	     1.73857
 989.602	     0.55669	    0.66755	     0.94846	    0.59375	     1.74934
 992.602	     0.55716	    0.66865	     0.94586	    0.59461	     1.75375
 995.602	     0.55449	    0.67814	     0.94462	    0.59878	     1.77050
 998.602	     0.54109	    0.68190	     0.94414	    0.60420	     1.78355
1001.6	     0.52956	    0.68268	     0.93870	    0.60797	     1.79848
1004.6	     0.51859	    0.68132	     0.93806	    0.60892	     1.81774
1007.6	     0.49542	    0.68861	     0.94257	    0.61071	     1.84280
1010.6	     0.48134	    0.69240	     0.94453	    0.61499	     1.87553
1013.6	     0.46788	    0.69505	     0.94837	    0.62171	     1.89842
1016.6	     0.46024	    0.69924	     0.95755	    0.62510	     1.91497
1019.6	     0.44642	    0.70397	     0.96267	    0.63225	     1.93519
1022.6	     0.43370	    0.70870	     0.97110	    0.63684	     1.95922
1025.6	     0.42275	    0.71305	     0.98305	    0.63466	     1.99730
1028.6	     0.41293	    0.71713	     0.99287	    0.63712	     2.00740
1031.6	     0.42895	    0.71732	     0.99965	    0.63983	     2.03145
1034.6	     0.45884	    0.72143	     1.01155	    0.63817	     2.04975
1037.6	     0.43634	    0.72426	     1.01722	    0.63390	     2.06742
1040.6	     0.44299	    0.72956	     1.01834	    0.63351	     2.08742
1043.6	     0.46711	    0.73381	     1.02564	    0.62870	     2.08807
1046.6	     0.47475	    0.73434	     1.05433	    0.62846	     2.09499
1049.6	     0.47745	    0.73245	     1.07780	    0.63098	     2.10099
1052.6	     0.46922	    0.73748	     1.08645	    0.63409	     2.11143
1055.6	     0.47311	    0.74148	     1.07350	    0.63682	     2.12648
1058.6	     0.48030	    0.74525	     1.04906	    0.64163	     2.13466
1061.6	     0.48470	    0.74445	     1.00461	    0.64686	     2.13990
1064.6	     0.47271	    0.75040	     0.95346	    0.64718	     2.14817
1067.6	     0.46590	    0.74885	     0.89792	    0.65499	     2.15981
1070.6	     0.47905	    0.74886	     0.82610	    0.66198	     2.16278
1073.6	     0.47639	    0.74885	     0.75238	    0.66344	     2.16900
1076.6	     0.47510	    0.74740	     0.65766	    0.66930	     2.18457
1079.6	     0.47954	    0.75118	     0.54323	    0.67240	     2.19544
1082.6	     0.48099	    0.75812	     0.49174	    0.67583	     2.20351
1085.6	     0.48797	    0.76200	     0.48006	    0.70319	     2.20960
1088.6	     0.49523	    0.76361	     0.47734	    0.70823	     2.21981
1091.6	     0.52865	    0.76536	     0.47879	    0.70756	     2.22778
1094.6	     0.51799	    0.76834	     0.48164	    0.70616	     2.23316
1097.6	     0.52823	    0.76365	     0.48512	    0.73068	     2.24289
1100.6	     0.52337	    0.76414	     0.49133	    0.73681	     2.25468
1103.6	     0.53367	    0.76722	     0.49915	    0.73971	     2.26454
1106.6	     0.55006	    0.76844	     0.50200	    0.73484	     2.29034
1109.6	     0.55296	    0.76766	     0.50656	    0.73273	     2.29907
1112.6	     0.55130	    0.76008	     0.50885	    0.73430	     2.30428
1115.6	     0.55692	    0.76486	     0.51406	    0.73624	     2.32296
1118.6	     0.55600	    0.77474	     0.52371	    0.74217	     2.33322
1121.6	     0.56166	    0.77781	     0.53315	    0.74557	     2.35537
1124.6	     0.55897	    0.78134	     0.53261	    0.74483	     2.35101
1127.6	     0.56069	    0.78313	     0.53239	    0.75291	     2.36010
1130.6	     0.56231	    0.78752	     0.53378	    0.75590	     2.37319
1133.6	     0.56882	    0.78338	     0.53619	    0.75633	     2.37986
1136.6	     0.57509	    0.78867	     0.54247	    0.75232	     2.38080
1139.6	     0.57415	    0.79576	     0.54428	    0.75846	     2.36668
1142.6	     0.57486	    0.79868	     0.55089	    0.76720	     2.54014
1145.6	     0.59096	    0.80187	     0.55970	    0.77191	     2.59787
1148.6	     0.60226	    0.80366	     0.56644	    0.77379	     2.59387
1151.6	     0.58896	    0.78999	     0.56629	    0.77973	     2.61065
1154.6	     0.58308	    0.79172	     0.56952	    0.77524	     2.60790
1157.6	     0.57440	    0.78814	     0.57475	    0.77929	     2.61435
1160.6	     0.59077	    0.79889	     0.57917	    0.79001	     2.64997
1163.6	     0.58315	    0.81439	     0.58820	    0.79451	     2.63287
1166.6	     0.59341	    0.80682	     0.59141	    0.79540	     2.62582
1169.6	     0.61134	    0.81454	     0.59209	    0.79992	     2.62284
1172.6	     0.59574	    0.81895	     0.60112	    0.80113	     2.63018
1175.6	     0.61134	    0.83758	     0.60172	    0.80378	     2.62619
1178.6	     0.61857	    0.83276	     0.60093	    0.80573	     2.62857
1181.6	     0.63614	    0.83920	     0.59442	    0.79919	     2.63806
1184.6	     0.64337	    0.84506	     0.60507	    0.80607	     2.68285
1187.6	     0.62938	    0.91331	     0.61135	    0.80175	     2.68752
1190.6	     0.63248	    0.89696	     0.61296	    0.79773	     2.66576
1193.6	     0.64054	    0.88995	     0.61462	    0.80287	     2.66988
1196.6	     0.64339	    0.87565	     0.61691	    0.80231	     2.68743
1199.6	     0.64769	    0.89617	     0.61837	    0.80180	     2.68224
1202.6	     0.65485	    0.88838	     0.62017	    0.80068	     2.68954
1205.6	     0.65581	    0.88392	     0.62274	    0.81758	     2.68712
1208.6	     0.66064	    0.88129	     0.61998	    0.80579	     2.68053
1211.6	     0.65421	    0.87792	     0.62333	    0.80713	     2.68789
1214.6	     0.65410	    0.87531	     0.62686	    0.80988	     2.68990
1217.6	     0.65943	    0.90682	     0.62590	    0.80822	     2.76443
1220.6	     0.65114	    0.88591	     0.62236	    0.81058	     2.73222
1223.6	     0.65682	    0.88845	     0.62124	    0.81250	     2.70800
1226.6	     0.65806	    0.88248	     0.62743	    0.82249	     2.72703
1229.6	     0.66793	    0.88203	     0.63418	    0.81753	     2.73497
1232.6	     0.66304	    0.88182	     0.63267	    0.82596	     2.77840
1235.6	     0.66640	    0.88205	     0.62477	    0.82360	     2.77491
1238.6	     0.66902	    0.88231	     0.63998	    0.83073	     2.77178
1241.6	     0.66565	    0.90076	     0.64259	    0.83583	     2.78666
1244.6	     0.67096	    0.88445	     0.63493	    0.83970	     2.77878
1247.6	     0.67873	    0.88669	     0.64154	    0.83646	     2.77781
1250.6	     0.67617	    0.90125	     0.63931	    0.84174	     2.78907
1253.6	     0.67159	    0.90348	     0.64376	    0.84171	     2.78803
1256.6	     0.67369	    0.89591	     0.64037	    0.84065	     2.78438
1259.6	     0.67395	    0.89842	     0.64275	    0.85797	     2.78480
1262.6	     0.67659	    0.89369	     0.64561	    0.86051	     2.78999
1265.6	     0.68541	    0.89795	     0.64453	    0.84422	     2.80491
1268.6	     0.69052	    0.91921	     0.64969	    0.84593	     2.80201
1271.6	     0.68524	    0.89649	     0.65058	    0.83933	     2.78595
1274.6	     0.69565	    0.90171	     0.65020	    0.84048	     2.77874
1277.6	     0.71290	    0.89643	     0.63448	    0.84516	     2.78671
1280.6	     0.80142	    0.89398	     0.63721	    0.83873	     2.79687
1283.6	     0.79894	    0.89713	     0.64263	    0.83357	     2.79205
1286.6	     0.79871	    0.92810	     0.63683	    0.83388	     2.79962
1289.6	     0.79863	    0.89762	     0.63853	    0.83720	     2.81580
1292.6	     0.80811	    0.89847	     0.66048	    0.83978	     2.84990
1295.6	     0.81787	    0.89479	     0.66374	    0.84872	     2.86422
1298.6	     0.81262	    0.88880	     0.66633	    0.84071	     2.82896
1301.6	     0.80850	    0.89857	     0.66867	    0.85177	     2.83736
1304.6	     0.82021	    0.89748	     0.65910	    0.83848	     2.84500
1307.6	     0.80570	    0.89262	     0.66377	    0.83527	     2.86849
1310.6	     0.82265	    0.90140	     0.67109	    0.83659	     2.88192
1313.6	     0.83054	    0.91685	     0.67559	    0.83882	     2.86926
1316.6	     0.83005	    0.90214	     0.68588	    0.83108	     2.92626
1319.6	     0.85925	    0.91554	     0.66477	    0.83163	     2.92810
1322.6	     0.87316	    0.93110	     0.66407	    0.82718	     2.93849
1325.6	     0.86260	    0.93628	     0.71327	    0.81866	     2.94472
1328.6	     0.87108	    0.93150	     0.71793	    0.81908	     2.94464
1331.6	     0.87246	    0.93118	     0.72486	    0.83084	     2.91353
1334.6	     0.86215	    0.93341	     0.72574	    0.82894	     2.94839
1337.6	     0.86762	    0.93705	     0.72319	    0.82820	     2.96337
1340.6	     0.86619	    0.93688	     0.72865	    0.83037	     2.90201
1343.6	     0.85362	    0.95704	     0.72653	    0.84375	     2.97337
1346.6	     0.86339	    0.94837	     0.73218	    0.83415	     2.94015
1349.6	     0.86164	    0.93462	     0.72994	    0.83042	     2.98213
1352.6	     0.85904	    0.94046	     0.72212	    0.83246	     2.98019
1355.6	     0.82542	    0.94928	     0.72963	    0.83090	     2.98761
1358.6	     0.80223	    0.94585	     0.74417	    0.82931	     2.98126
1361.6	     0.80172	    0.95445	     0.73797	    0.83728	     2.93995
1364.6	     0.78461	    0.94320	     0.74053	    0.84855	     3.00404
1367.6	     0.78600	    0.96816	     0.72947	    0.84490	     3.01651
1370.6	     0.79545	    0.95166	     0.73130	    0.82881	     3.00482
1373.6	     0.78460	    0.97200	     0.73862	    0.83732	     3.03577
1376.6	     0.77159	    0.96472	     0.73645	    0.83706	     3.06027
1379.6	     0.77399	    0.97239	     0.72903	    0.81101	     3.08324
1382.6	     0.78458	    0.97190	     0.72364	    0.83242	     3.10573
1385.6	     0.78162	    0.97378	     0.73245	    0.83059	     3.08236
1388.6	     0.77387	    0.95425	     0.73347	    0.82823	     3.07772
1391.6	     0.78885	    0.95417	     0.74020	    0.84053	     3.07245
1394.6	     0.78760	    0.95038	     0.75211	    0.83565	     3.09924
1397.6	     0.80592	    0.96036	     0.77589	    0.83759	     3.05257
1400.6	     0.78893	    0.95849	     0.76084	    0.84795	     3.06990
1403.6	     0.81475	    0.93961	     0.77098	    0.84510	     3.07096
1406.6	     0.79675	    0.98128	     0.75227	    0.84933	     3.08685
1409.6	     0.80394	    0.97537	     0.74631	    0.83913	     3.08459
1412.6	     0.79213	    0.97491	     0.75264	    0.87534	     3.10451
1415.6	     0.79125	    0.96328	     0.73878	    0.92441	     3.12854
1418.6	     0.78845	    0.98121	     0.74307	    0.92830	     3.12810
1421.6	     0.79027	    0.97713	     0.73798	    0.91643	     3.13161
1424.6	     0.78964	    0.98174	     0.85129	    0.85293	     3.13403
1427.6	     0.79089	    0.97049	     0.85629	    0.92344	     3.14521
1430.6	     0.80258	    0.98785	     0.83990	    0.93847	     3.15774
1433.6	     0.80660	    0.98797	     0.82492	    0.94649	     3.15969
1436.6	     0.80491	    0.97195	     0.81926	    0.96158	     3.17108
1439.6	     0.79818	    0.98614	     0.83467	    0.94783	     3.16391
1442.6	     0.79769	    0.98143	     0.85058	    0.93305	     3.18828
1445.6	     0.80661	    0.98005	     0.84817	    0.94936	     3.18879
1448.6	     0.80369	    0.98214	     0.86465	    0.93463	     3.19946
1451.6	     0.80769	    0.98312	     0.86716	    0.93030	     3.20160
1454.6	     0.80431	    0.98592	     0.85680	    0.94749	     3.18893
1457.6	     0.80188	    0.98584	     0.88517	    0.94672	     3.20013
1460.6	     0.80755	    0.98321	     0.85542	    0.95570	     3.22358
1463.6	     0.81315	    0.98574	     0.83965	    0.94508	     3.21092
1466.6	     0.82037	    0.98647	     0.84454	    0.95252	     3.21942
1469.6	     0.81447	    0.99821	     0.85416	    0.93229	     3.21545
1472.6	     0.81560	    1.00519	     0.84523	    0.93638	     3.21517
1475.6	     0.80932	    1.02286	     0.83305	    0.91591	     3.22971
1478.6	     0.81188	    1.02443	     0.83424	    0.92074	     3.23442
1481.6	     0.81382	    1.01996	     0.86278	    0.92019	     3.24313
1484.6	     0.81537	    1.02276	     0.88602	    0.92999	     3.23903
1487.6	     0.81733	    1.02621	     0.89127	    0.94713	     3.23576
1490.6	     0.81973	    1.02839	     0.89383	    0.94455	     3.23552
1493.6	     0.80909	    1.03018	     0.90700	    0.94944	     3.23984
1496.6	     0.81470	    1.02870	     0.89966	    0.95542	     3.24654
1499.6	     0.81447	    1.02178	     0.89867	    0.96146	     3.23376
1502.6	     0.82638	    1.01015	     0.90886	    0.95258	     3.24425
1505.6	     0.81473	    1.01128	     0.90126	    0.95591	     3.24014
1508.6	     0.81207	    1.01475	     0.91166	    0.95651	     3.25958
1511.6	     0.81288	    1.01760	     0.89714	    0.96745	     3.26295
1514.6	     0.80837	    1.01680	     0.90872	    0.96290	     3.26003
1517.6	     0.80816	    1.01493	     0.89504	    0.96790	     3.26410
1520.6	     0.80568	    1.01929	     0.89938	    0.96306	     3.25538
1523.6	     0.81116	    1.02219	     0.88969	    0.93286	     3.25335
1526.6	     0.81395	    1.02448	     0.89884	    0.93311	     3.25880
1529.6	     0.81373	    1.03678	     0.90074	    0.92927	     3.26183
1532.6	     0.82842	    1.03872	     0.89657	    0.92598	     3.26560
1535.6	     0.81802	    1.03391	     0.89856	    0.93207	     3.26481
1538.6	     0.83108	    1.03727	     0.89569	    0.93113	     3.25934
1541.6	     0.82558	    1.03557	     0.89882	    0.92102	     3.26470
1544.6	     0.83133	    1.04291	     0.88817	    0.92150	     3.26423
1547.6	     0.83125	    1.04771	     0.87976	    0.91753	     3.26535
1550.6	     0.82807	    1.04574	     0.88301	    0.93170	     3.25673
1553.6	     0.82059	    1.04337	     0.88236	    0.93269	     3.26292
1556.6	     0.81801	    1.04226	     0.87636	    0.91489	     3.26837
1559.6	     0.81969	    1.03997	     0.88024	    0.91960	     3.28080
1562.6	     0.82731	    1.04606	     0.88269	    0.92244	     3.28070
1565.6	     0.83363	    1.04290	     0.88797	    0.92369	     3.27755
1568.6	     0.83172	    1.04252	     0.88324	    0.91887	     3.27901
1571.6	     0.81065	    1.04488	     0.89107	    0.92551	     3.29196
1574.6	     0.81806	    1.04620	     0.89382	    0.93193	     3.30081
1577.6	     0.85313	    1.04609	     0.89169	    0.93610	     3.30595
1580.6	     0.86215	    1.04664	     0.88689	    0.92186	     3.30495
1583.6	     0.86337	    1.04741	     0.88940	    0.92247	     3.30810
1586.6	     0.88958	    1.04549	     0.89324	    0.90597	     3.30505
1589.6	     0.89576	    1.04483	     0.90754	    0.91461	     3.30503
1592.6	     0.89366	    1.04651	     0.89933	    0.91121	     3.29738
1595.6	     0.88329	    1.04768	     0.89955	    0.90820	     3.29639
1598.6	     0.85873	    1.04824	     0.88914	    0.90746	     3.31420
1601.6	     0.87044	    1.04572	     0.89333	    0.90728	     3.31309
1604.6	     0.88272	    1.04730	     0.89868	    0.90841	     3.31101
1607.6	     0.88226	    1.04543	     0.89585	    0.89821	     3.30067
1610.6	     0.87315	    1.04557	     0.90410	    0.90128	     3.28921
1613.6	     0.88231	    1.04392	     0.89753	    0.89501	     3.28415
1616.6	     0.88415	    1.04989	     0.89404	    0.89497	     3.27986
1619.6	     0.88091	    1.05147	     0.89901	    0.90081	     3.27921
1622.6	     0.88966	    1.04942	     0.90185	    0.90035	     3.25658
1625.6	     0.88872	    1.05061	     0.89121	    0.89156	     3.26420
1628.6	     0.88789	    1.04790	     0.88312	    0.89433	     3.26698
1631.6	     0.89158	    1.04796	     0.88645	    0.89612	     3.25407
1634.6	     0.89201	    1.04675	     0.88062	    0.89319	     3.21130
1637.6	     0.88625	    1.04550	     0.88161	    0.88665	     3.19860
1640.6	     0.88232	    1.04355	     0.87999	    0.88110	     3.20658
1643.6	     0.88093	    1.04227	     0.87591	    0.87429	     3.19954
1646.6	     0.88324	    1.04134	     0.87828	    0.89052	     3.19993
1649.6	     0.88168	    1.04322	     0.86707	    0.89733	     3.19049
1652.6	     0.86627	    1.04084	     0.86287	    0.89485	     3.18663
1655.6	     0.86126	    1.04559	     0.88776	    0.88346	     3.17885
1658.6	     0.86206	    1.04211	     0.89010	    0.89088	     3.17447
1661.6	     0.86034	    1.02352	     0.88536	    0.88591	     3.16857
1664.6	     0.84946	    1.02239	     0.88510	    0.88142	     3.16383
1667.6	     0.84564	    1.03939	     0.88161	    0.88036	     3.16376
1670.6	     0.84597	    1.04695	     0.88013	    0.87447	     3.16363
1673.6	     0.84088	    1.04348	     0.87730	    0.87527	     3.16267
1676.6	     0.83718	    1.04159	     0.88400	    0.87476	     3.14132
1679.6	     0.83868	    1.04206	     0.88471	    0.86983	     3.14367
1682.6	     0.83983	    1.04232	     0.88614	    0.86980	     3.14448
1685.6	     0.84229	    1.04079	     0.88723	    0.86715	     3.12112
1688.6	     0.84226	    1.04037	     0.88739	    0.86527	     3.12644
1691.6	     0.84175	    1.04067	     0.88665	    0.86799	     3.11983
1694.6	     0.84108	    1.04074	     0.88433	    0.86659	     3.11687
1697.6	     0.83953	    1.03897	     0.87068	    0.85650	     3.11101
1700.6	     0.83687	    1.03892	     0.87874	    0.85158	     3.10542
1703.6	     0.84636	    1.03276	     0.88072	    0.84995	     3.10531
1706.6	     0.84358	    1.03000	     0.88883	    0.84425	     3.09621
1709.6	     0.83955	    1.02592	     0.87818	    0.82997	     3.09050
1712.6	     0.84101	    1.02387	     0.87944	    0.82662	     3.08978
1715.6	     0.83800	    1.01979	     0.88100	    0.82919	     3.08513
1718.6	     0.83149	    1.01650	     0.86796	    0.84062	     3.08970
1721.6	     0.82985	    1.01470	     0.87208	    0.84147	     3.07982
1724.6	     0.83035	    1.01333	     0.89752	    0.84021	     3.07043
1727.6	     0.83365	    1.00585	     0.90536	    0.83331	     3.07927
1730.6	     0.83307	    1.00589	     0.90763	    0.83448	     3.06833
1733.6	     0.82359	    1.00322	     0.91274	    0.83803	     3.05846
1736.6	     0.82063	    1.00107	     0.91175	    0.83838	     3.05540
1739.6	     0.82610	    1.00274	     0.91210	    0.83339	     3.05231
1742.6	     0.82042	    0.99942	     0.91638	    0.83033	     3.03626
1745.6	     0.81944	    0.99905	     0.91601	    0.84121	     3.03327
1748.6	     0.82054	    0.99796	     0.91458	    0.84140	     3.02719
1751.6	     0.82614	    0.99578	     0.91778	    0.85064	     3.01400
1754.6	     0.83075	    0.99602	     0.91890	    0.85134	     3.01037
1757.6	     0.82837	    0.99215	     0.92093	    0.85003	     3.00667
1760.6	     0.82864	    0.99135	     0.92342	    0.84577	     3.01045
1763.6	     0.82833	    0.98912	     0.92125	    0.84982	     2.99988
1766.6	     0.82827	    0.98380	     0.91749	    0.85176	     2.99768
1769.6	     0.83755	    0.98327	     0.91584	    0.85031	     2.99242
1772.6	     0.83368	    0.98387	     0.91408	    0.84629	     2.99124
1775.6	     0.82686	    0.98001	     0.91367	    0.84789	     2.99650
1778.6	     0.83258	    0.97651	     0.91373	    0.84528	     2.99890
1781.6	     0.83031	    0.97473	     0.90901	    0.84177	     2.99730
1784.6	     0.82990	    0.97002	     0.90771	    0.84247	     2.99300
1787.6	     0.83193	    0.96548	     0.90801	    0.84138	     2.99166
1790.6	     0.84721	    0.96429	     0.90786	    0.84014	     2.99052
1793.6	     0.83555	    0.96021	     0.90405	    0.84276	     3.00109
1796.6	     0.83395	    0.95918	     0.91522	    0.84149	     3.00464
1799.6	     0.83489	    0.96083	     0.90999	    0.83954	     3.01148
1802.6	     0.83474	    0.95916	     0.90339	    0.83755	     3.00837
1805.6	     0.83595	    0.95907	     0.90286	    0.84630	     3.01185
1808.6	     0.83882	    0.96346	     0.90086	    0.83619	     3.02821
1811.6	     0.83904	    0.96232	     0.89856	    0.84133	     3.02937
1814.6	     0.84216	    0.96099	     0.89610	    0.84113	     3.03918
1817.6	     0.84352	    0.96308	     0.89549	    0.83949	     3.03990
1820.6	     0.84494	    0.96265	     0.89835	    0.84682	     3.04428
1823.6	     0.86274	    0.96083	     0.89987	    0.83746	     3.05725
1826.6	     0.85388	    0.96449	     0.89844	    0.83572	     3.06580
1829.6	     0.86776	    0.96598	     0.89128	    0.83939	     3.07457
1832.6	     0.87148	    0.96747	     0.89429	    0.83131	     3.09156
1835.6	     0.88037	    0.96682	     0.89173	    0.82925	     3.09695
1838.6	     0.87767	    0.96562	     0.89269	    0.83071	     3.10446
1841.6	     0.88435	    0.96546	     0.89336	    0.83110	     3.11238
1844.6	     0.88993	    0.96786	     0.89254	    0.82597	     3.10791
1847.6	     0.89935	    0.96633	     0.88874	    0.82334	     3.11337
1850.6	     0.89525	    0.96979	     0.88911	    0.83772	     3.10373
1853.6	     0.89867	    0.97344	     0.88893	    0.83720	     3.09444
1856.6	     0.89703	    0.97583	     0.88426	    0.82961	     3.00893
1859.6	     0.89510	    0.97756	     0.88495	    0.81652	     2.74702
1862.6	     0.89386	    0.98035	     0.88654	    0.81880	     2.46027
1865.6	     0.89016	    0.98168	     0.88738	    0.82257	     2.21035
1868.6	     0.88581	    0.98299	     0.88546	    0.82044	     2.21187
1871.6	     0.87982	    0.98009	     0.88701	    0.81947	     3.05915
1874.6	     0.87359	    0.97298	     0.88809	    0.83519	     3.07276
1877.6	     0.87052	    0.98144	     0.88664	    0.83433	     3.07517
1880.6	     0.87243	    0.98318	     0.88979	    0.83013	     3.08153
1883.6	     0.87004	    0.98261	     0.88958	    0.81774	     3.08230
1886.6	     0.86837	    0.98518	     0.88710	    0.81760	     3.07751
1889.6	     0.86717	    0.98511	     0.89051	    0.83752	     3.07948
1892.6	     0.86602	    0.98320	     0.89257	    0.83881	     3.07834
1895.6	     0.87640	    0.98333	     0.89708	    0.84238	     3.07834
1898.6	     0.87696	    0.98150	     0.89756	    0.84399	     3.07834
1901.6	     0.87573	    0.97807	     0.89899	    0.84086	     3.07834
1904.6	     0.87585	    0.97501	     0.89910	    0.83791	     3.07834
1907.6	     0.87213	    0.96439	     0.89641	    0.83527	     3.07834
1910.6	     0.86761	    0.94512	     0.88967	    0.83101
1913.6	     0.86114	    0.90143	     0.87763	    0.83026
1916.6	     0.84295	    0.85940	     0.86755	    0.82838
1919.6	     0.81298	    0.80562	     0.85859	    0.82352
1922.6	     0.70743	    0.75540	     0.85209	    0.82099
1925.6	     0.58158	    0.75875	     0.84764	    0.82015
1928.6	     0.51964	    0.98179	     0.84450	    0.81510
1931.6	     0.67909	    0.98193	     0.83957	    0.80894
1934.6	     0.86833	    0.97510	     0.84073	    0.79902
1937.6	     0.87372	    0.97252	     0.83727	    0.78853
1940.6	     0.87700	    0.97247	     0.83348	    0.76530
1943.6	     0.87354	    0.96936	     0.83032	    0.74471
1946.6	     0.87344	    0.97032	     0.82228	    0.71804
1949.6	     0.86875	    0.96854	     0.81654	    0.68689
1952.6	     0.86416	    0.96697	     0.80669	    0.65487
1955.6	     0.85487	    0.96473	     0.79349	    0.64982
1958.6	     0.85737	    0.96265	     0.76845	    0.71586
1961.6	     0.85715	    0.96258	     0.74531	    0.82179
1964.6	     0.85644	    0.96079	     0.68576	    0.81903
1967.6	     0.85191	    0.95966	     0.59066	    0.81853
1970.6	     0.84873	    0.94768	     0.55343	    0.81455
1973.6	     0.84578	    0.94007	     0.65615	    0.81501
1976.6	     0.84155	    0.93491	     0.78476	    0.81352
1979.6	     0.83131	    0.93154	     0.80624	    0.81403
1982.6	     0.82678	    0.92862	     0.79575	    0.81535
1985.6	     0.82234	    0.92648	     0.79677	    0.80831
1988.6	     0.81234	    0.92360	     0.79477	    0.80707
1991.6	     0.80903	    0.92112	     0.79137	    0.80578
1994.6	     0.80691	    0.91763	     0.79089	    0.80277
1997.6	     0.80292	    0.91058	     0.79032	    0.79998
2000.6	     0.79475	    0.90774	     0.78818	    0.79647
2003.6	     0.79164	    0.90304	     0.78530	    0.79467
2006.6	     0.79052	    0.90101	     0.78246	    0.80188
2009.6	     0.78479	    0.89815	     0.77619	    0.79748
2012.6	     0.77885	    0.89400	     0.76944	    0.79338
2015.6	     0.77198	    0.88987	     0.76502	    0.78783
2018.6	     0.76899	    0.88346	     0.76106	    0.78487
2021.6	     0.76700	    0.87829	     0.75500	    0.78555
2024.6	     0.75491	    0.87612	     0.74715	    0.77837
2027.6	     0.74646	    0.86956	     0.74295	    0.76963
2030.6	     0.74536	    0.86218	     0.73949	    0.76643
2033.6	     0.73653	    0.85802	     0.73488	    0.76201
2035.1	     0.73494	    0.85802	     0.73141	    0.76180